trial	ons(s)	stim_id	stim      	cond    	dur 	rt  	acc 	resp    	cresp   
1   	76.7  	1   	3  +  8   	---     	1.851	1.51	0   	even    	odd     
2   	78.7  	2   	7  +  4   	---     	1.85	1.046	0   	even    	odd     
trial	ons(s)	stim_id	stim      	cond    	dur 	rt  	acc 	resp    	cresp   
1   	118.7 	1   	6  +  6   	---     	1.85	1.006	0   	odd     	even    
2   	120.7 	2   	7  +  5   	---     	1.85	1.039	0   	odd     	even    
trial	ons(s)	stim_id	stim      	cond    	dur 	rt  	acc 	resp    	cresp   
1   	160.7 	1   	9  +  3   	---     	1.85	1.343	0   	odd     	even    
2   	162.7 	2   	6  +  6   	---     	1.851	0.663	0   	odd     	even    
trial	ons(s)	stim_id	stim      	cond    	dur 	rt  	acc 	resp    	cresp   
1   	202.7 	1   	7  +  5   	---     	1.851	1.255	0   	odd     	even    
2   	204.7 	2   	6  +  7   	---     	1.85	0.695	1   	odd     	odd     
trial	ons(s)	stim_id	stim      	cond    	dur 	rt  	acc 	resp    	cresp   
1   	244.7 	1   	8  +  3   	---     	1.85	1.167	0   	even    	odd     
2   	246.7 	2   	5  +  7   	---     	1.85	0.823	0   	odd     	even    
trial	ons(s)	stim_id	stim      	cond    	dur 	rt  	acc 	resp    	cresp   
1   	286.7 	1   	7  +  9   	---     	1.85	1.335	0   	odd     	even    
2   	288.7 	2   	9  +  8   	---     	1.851	0.664	0   	even    	odd     
trial	ons(s)	stim_id	stim      	cond    	dur 	rt  	acc 	resp    	cresp   
1   	328.7 	1   	8  +  3   	---     	1.851	1.304	0   	even    	odd     
2   	330.7 	2   	3  +  8   	---     	1.85	0.584	0   	even    	odd     
trial	ons(s)	stim_id	stim      	cond    	dur 	rt  	acc 	resp    	cresp   
1   	370.7 	1   	5  +  9   	---     	1.85	1.072	0   	odd     	even    
2   	372.7 	2   	6  +  6   	---     	1.85	0.744	0   	odd     	even    
trial	ons(s)	stim_id	stim      	cond    	dur 	rt  	acc 	resp    	cresp   
1   	412.7 	1   	5  +  9   	---     	1.85	1.36	0   	odd     	even    
2   	414.7 	2   	3  +  9   	---     	1.851	0.817	0   	odd     	even    
trial	ons(s)	stim_id	stim      	cond    	dur 	rt  	acc 	resp    	cresp   
1   	454.7 	1   	4  +  8   	---     	1.851	0.841	0   	odd     	even    
2   	456.7 	2   	7  +  8   	---     	1.853	0.785	0   	even    	odd     
trial	ons(s)	stim_id	stim      	cond    	dur 	rt  	acc 	resp    	cresp   
1   	496.7 	1   	3  +  9   	---     	1.85	1.049	1   	even    	even    
2   	498.7 	2   	9  +  2   	---     	1.85	1.537	0   	even    	odd     
trial	ons(s)	stim_id	stim      	cond    	dur 	rt  	acc 	resp    	cresp   
1   	538.7 	1   	6  +  9   	---     	1.851	1.217	0   	even    	odd     
2   	540.7 	2   	8  +  4   	---     	1.851	0.65	0   	odd     	even    
trial	ons(s)	stim_id	stim      	cond    	dur 	rt  	acc 	resp    	cresp   
1   	580.7 	1   	9  +  8   	---     	1.851	1.69	0   	even    	odd     
2   	582.7 	2   	8  +  4   	---     	1.85	0.746	0   	odd     	even    
trial	ons(s)	stim_id	stim      	cond    	dur 	rt  	acc 	resp    	cresp   
1   	622.7 	1   	7  +  9   	---     	1.85	1.722	0   	odd     	even    
2   	624.7 	2   	9  +  6   	---     	1.853	0.842	0   	even    	odd     
trial	ons(s)	stim_id	stim      	cond    	dur 	rt  	acc 	resp    	cresp   
1   	664.7 	1   	9  +  7   	---     	1.85	1.146	0   	odd     	even    
2   	666.7 	2   	5  +  6   	---     	1.851	0.882	0   	even    	odd     
trial	ons(s)	stim_id	stim      	cond    	dur 	rt  	acc 	resp    	cresp   
1   	706.7 	1   	8  +  6   	---     	1.85	1.026	0   	odd     	even    
2   	708.7 	2   	6  +  5   	---     	1.85	0.715	0   	even    	odd     
trial	ons(s)	stim_id	stim      	cond    	dur 	rt  	acc 	resp    	cresp   
1   	748.7 	1   	4  +  9   	---     	1.85	1.515	0   	even    	odd     
2   	750.7 	2   	8  +  5   	---     	1.85	0.875	0   	even    	odd     
trial	ons(s)	stim_id	stim      	cond    	dur 	rt  	acc 	resp    	cresp   
1   	790.7 	1   	2  +  9   	---     	1.85	1.596	0   	even    	odd     
2   	792.7 	2   	5  +  7   	---     	1.85	1.107	0   	odd     	even    
trial	ons(s)	stim_id	stim      	cond    	dur 	rt  	acc 	resp    	cresp   
1   	832.7 	1   	6  +  9   	---     	1.851	1.451	0   	even    	odd     
2   	834.7 	2   	8  +  7   	---     	1.85	0.94	0   	even    	odd     
trial	ons(s)	stim_id	stim      	cond    	dur 	rt  	acc 	resp    	cresp   
1   	874.7 	1   	9  +  8   	---     	1.85	0.828	0   	even    	odd     
2   	876.7 	2   	8  +  8   	---     	1.851	0.571	0   	odd     	even    
trial	ons(s)	stim_id	stim      	cond    	dur 	rt  	acc 	resp    	cresp   
1   	916.7 	1   	9  +  7   	---     	1.85	1.228	0   	odd     	even    
2   	918.7 	2   	9  +  5   	---     	1.851	0.588	0   	odd     	even    
trial	ons(s)	stim_id	stim      	cond    	dur 	rt  	acc 	resp    	cresp   
1   	958.7 	1   	7  +  7   	---     	1.851	1.49	0   	odd     	even    
2   	960.7 	2   	5  +  8   	---     	1.85	1.517	0   	even    	odd     
trial	ons(s)	stim_id	stim      	cond    	dur 	rt  	acc 	resp    	cresp   
1   	1000.7	1   	4  +  8   	---     	1.85	0.764	0   	odd     	even    
2   	1002.7	2   	3  +  8   	---     	1.85	0.773	0   	even    	odd     
trial	ons(s)	stim_id	stim      	cond    	dur 	rt  	acc 	resp    	cresp   
1   	1042.7	1   	9  +  3   	---     	1.851	1.229	0   	odd     	even    
2   	1044.7	2   	5  +  7   	---     	1.851	0.709	0   	odd     	even    
trial	ons(s)	stim_id	stim      	cond    	dur 	rt  	acc 	resp    	cresp   
1   	1084.7	1   	9  +  9   	---     	1.85	0.821	0   	odd     	even    
2   	1086.7	2   	6  +  5   	---     	1.853	0.845	0   	even    	odd     
trial	ons(s)	stim_id	stim      	cond    	dur 	rt  	acc 	resp    	cresp   
1   	1126.7	1   	7  +  7   	---     	1.85	0.861	0   	odd     	even    
2   	1128.7	2   	6  +  5   	---     	1.853	0.734	0   	even    	odd     
trial	ons(s)	stim_id	stim      	cond    	dur 	rt  	acc 	resp    	cresp   
1   	1168.7	1   	6  +  9   	---     	1.851	0.941	0   	even    	odd     
2   	1170.7	2   	7  +  9   	---     	1.851	1.222	0   	odd     	even    
trial	ons(s)	stim_id	stim      	cond    	dur 	rt  	acc 	resp    	cresp   
1   	1210.7	1   	4  +  8   	---     	1.851	0.798	0   	odd     	even    
2   	1212.7	2   	9  +  2   	---     	1.85	0.702	0   	even    	odd     
trial	ons(s)	stim_id	stim      	cond    	dur 	rt  	acc 	resp    	cresp   
1   	1252.7	1   	9  +  5   	---     	1.85	1.062	0   	odd     	even    
2   	1254.7	2   	6  +  9   	---     	1.85	0.815	0   	even    	odd     
trial	ons(s)	stim_id	stim      	cond    	dur 	rt  	acc 	resp    	cresp   
1   	1294.7	1   	2  +  9   	---     	1.85	1.447	0   	even    	odd     
2   	1296.7	2   	9  +  3   	---     	1.851	0.631	0   	odd     	even    
trial	ons(s)	stim_id	stim      	cond    	dur 	rt  	acc 	resp    	cresp   
1   	1336.7	1   	8  +  6   	---     	1.851	1.119	0   	odd     	even    
2   	1338.7	2   	8  +  9   	---     	1.85	0.815	0   	even    	odd     
trial	ons(s)	stim_id	stim      	cond    	dur 	rt  	acc 	resp    	cresp   
1   	1378.7	1   	4  +  7   	---     	1.85	1.135	1   	odd     	odd     
2   	1380.7	2   	7  +  9   	---     	1.85	0.864	0   	odd     	even    
