trial	ons(s)	stim_id	stim      	cond    	dur 	rt  	acc 	resp    	cresp   
1   	71.3  	1   	8  +  6   	---     	1.851	1.091	1   	even    	even    
2   	73.3  	2   	3  +  8   	---     	1.851	0.906	1   	odd     	odd     
trial	ons(s)	stim_id	stim      	cond    	dur 	rt  	acc 	resp    	cresp   
1   	113.3 	1   	6  +  5   	---     	1.85	1.243	1   	odd     	odd     
2   	115.3 	2   	9  +  8   	---     	1.85	1.216	1   	odd     	odd     
trial	ons(s)	stim_id	stim      	cond    	dur 	rt  	acc 	resp    	cresp   
1   	155.3 	1   	5  +  6   	---     	1.85	1.14	1   	odd     	odd     
2   	157.3 	2   	7  +  6   	---     	1.85	1.004	1   	odd     	odd     
trial	ons(s)	stim_id	stim      	cond    	dur 	rt  	acc 	resp    	cresp   
1   	197.3 	1   	9  +  7   	---     	1.851	1.308	1   	even    	even    
2   	199.3 	2   	6  +  6   	---     	1.851	0.876	1   	even    	even    
trial	ons(s)	stim_id	stim      	cond    	dur 	rt  	acc 	resp    	cresp   
1   	239.3 	1   	9  +  4   	---     	1.85	1.108	1   	odd     	odd     
2   	241.3 	2   	6  +  6   	---     	1.85	0.756	1   	even    	even    
trial	ons(s)	stim_id	stim      	cond    	dur 	rt  	acc 	resp    	cresp   
1   	281.3 	1   	3  +  9   	---     	1.85	0.876	1   	even    	even    
2   	283.3 	2   	2  +  9   	---     	1.85	0.844	1   	odd     	odd     
trial	ons(s)	stim_id	stim      	cond    	dur 	rt  	acc 	resp    	cresp   
1   	323.3 	1   	7  +  5   	---     	1.85	1.653	1   	even    	even    
2   	325.3 	2   	3  +  8   	---     	1.85	0.756	1   	odd     	odd     
trial	ons(s)	stim_id	stim      	cond    	dur 	rt  	acc 	resp    	cresp   
1   	365.3 	1   	4  +  9   	---     	1.852	NR  	0   	NR      	odd     
2   	367.3 	2   	5  +  9   	---     	1.851	0.069	0   	odd     	even    
trial	ons(s)	stim_id	stim      	cond    	dur 	rt  	acc 	resp    	cresp   
1   	407.3 	1   	8  +  8   	---     	1.851	1.013	1   	even    	even    
2   	409.3 	2   	4  +  7   	---     	1.85	0.861	1   	odd     	odd     
trial	ons(s)	stim_id	stim      	cond    	dur 	rt  	acc 	resp    	cresp   
1   	449.3 	1   	8  +  7   	---     	1.85	1.325	1   	odd     	odd     
2   	451.3 	2   	9  +  9   	---     	1.85	0.877	1   	even    	even    
trial	ons(s)	stim_id	stim      	cond    	dur 	rt  	acc 	resp    	cresp   
1   	491.3 	1   	9  +  4   	---     	1.852	1.221	1   	odd     	odd     
2   	493.3 	2   	5  +  6   	---     	1.851	0.686	1   	odd     	odd     
trial	ons(s)	stim_id	stim      	cond    	dur 	rt  	acc 	resp    	cresp   
1   	533.3 	1   	6  +  9   	---     	1.851	1.254	1   	odd     	odd     
2   	535.3 	2   	9  +  7   	---     	1.85	1.582	1   	even    	even    
trial	ons(s)	stim_id	stim      	cond    	dur 	rt  	acc 	resp    	cresp   
1   	575.3 	1   	8  +  9   	---     	1.85	1.102	1   	odd     	odd     
2   	577.3 	2   	9  +  7   	---     	1.85	1.278	1   	even    	even    
trial	ons(s)	stim_id	stim      	cond    	dur 	rt  	acc 	resp    	cresp   
1   	617.3 	1   	9  +  2   	---     	1.851	0.902	1   	odd     	odd     
2   	619.3 	2   	4  +  9   	---     	1.851	0.855	1   	odd     	odd     
trial	ons(s)	stim_id	stim      	cond    	dur 	rt  	acc 	resp    	cresp   
1   	659.3 	1   	5  +  6   	---     	1.852	0.798	1   	odd     	odd     
2   	661.3 	2   	9  +  4   	---     	1.851	0.823	1   	odd     	odd     
trial	ons(s)	stim_id	stim      	cond    	dur 	rt  	acc 	resp    	cresp   
1   	701.3 	1   	5  +  8   	---     	1.85	0.983	1   	odd     	odd     
2   	703.3 	2   	9  +  9   	---     	1.851	0.791	1   	even    	even    
trial	ons(s)	stim_id	stim      	cond    	dur 	rt  	acc 	resp    	cresp   
1   	743.3 	1   	8  +  6   	---     	1.852	0.991	1   	even    	even    
2   	745.3 	2   	9  +  4   	---     	1.851	1.247	1   	odd     	odd     
trial	ons(s)	stim_id	stim      	cond    	dur 	rt  	acc 	resp    	cresp   
1   	785.3 	1   	2  +  9   	---     	1.85	0.8 	1   	odd     	odd     
2   	787.3 	2   	7  +  6   	---     	1.85	1.056	1   	odd     	odd     
trial	ons(s)	stim_id	stim      	cond    	dur 	rt  	acc 	resp    	cresp   
1   	827.3 	1   	8  +  3   	---     	1.85	0.928	1   	odd     	odd     
2   	829.3 	2   	8  +  4   	---     	1.851	0.847	1   	even    	even    
trial	ons(s)	stim_id	stim      	cond    	dur 	rt  	acc 	resp    	cresp   
1   	869.3 	1   	7  +  6   	---     	1.851	1.136	1   	odd     	odd     
2   	871.3 	2   	8  +  3   	---     	1.85	0.696	1   	odd     	odd     
trial	ons(s)	stim_id	stim      	cond    	dur 	rt  	acc 	resp    	cresp   
1   	911.3 	1   	5  +  9   	---     	1.85	0.961	1   	even    	even    
2   	913.3 	2   	7  +  9   	---     	1.853	1.033	1   	even    	even    
trial	ons(s)	stim_id	stim      	cond    	dur 	rt  	acc 	resp    	cresp   
1   	953.3 	1   	6  +  7   	---     	1.85	1.024	1   	odd     	odd     
2   	955.3 	2   	9  +  3   	---     	1.85	1.329	1   	even    	even    
trial	ons(s)	stim_id	stim      	cond    	dur 	rt  	acc 	resp    	cresp   
1   	995.3 	1   	9  +  3   	---     	1.85	1.249	1   	even    	even    
2   	997.3 	2   	8  +  9   	---     	1.851	1.241	1   	odd     	odd     
trial	ons(s)	stim_id	stim      	cond    	dur 	rt  	acc 	resp    	cresp   
1   	1037.3	1   	6  +  9   	---     	1.851	1.825	1   	odd     	odd     
2   	1039.3	2   	8  +  6   	---     	1.85	0.986	1   	even    	even    
trial	ons(s)	stim_id	stim      	cond    	dur 	rt  	acc 	resp    	cresp   
1   	1079.3	1   	4  +  8   	---     	1.85	1.113	1   	even    	even    
2   	1081.3	2   	6  +  5   	---     	1.853	0.714	1   	odd     	odd     
trial	ons(s)	stim_id	stim      	cond    	dur 	rt  	acc 	resp    	cresp   
1   	1121.3	1   	6  +  8   	---     	1.85	1.138	1   	even    	even    
2   	1123.3	2   	9  +  7   	---     	1.853	0.978	1   	even    	even    
trial	ons(s)	stim_id	stim      	cond    	dur 	rt  	acc 	resp    	cresp   
1   	1163.3	1   	2  +  9   	---     	1.851	0.802	1   	odd     	odd     
2   	1165.3	2   	7  +  5   	---     	1.85	1.018	1   	even    	even    
trial	ons(s)	stim_id	stim      	cond    	dur 	rt  	acc 	resp    	cresp   
1   	1205.3	1   	5  +  8   	---     	1.85	0.922	1   	odd     	odd     
2   	1207.3	2   	4  +  9   	---     	1.85	0.827	1   	odd     	odd     
trial	ons(s)	stim_id	stim      	cond    	dur 	rt  	acc 	resp    	cresp   
1   	1247.3	1   	5  +  8   	---     	1.851	0.787	1   	odd     	odd     
2   	1249.3	2   	3  +  9   	---     	1.853	0.931	1   	even    	even    
trial	ons(s)	stim_id	stim      	cond    	dur 	rt  	acc 	resp    	cresp   
1   	1289.3	1   	8  +  9   	---     	1.85	0.755	1   	odd     	odd     
2   	1291.3	2   	7  +  4   	---     	1.85	0.755	1   	odd     	odd     
trial	ons(s)	stim_id	stim      	cond    	dur 	rt  	acc 	resp    	cresp   
1   	1331.3	1   	9  +  2   	---     	1.851	0.651	1   	odd     	odd     
2   	1333.3	2   	8  +  6   	---     	1.851	0.859	1   	even    	even    
trial	ons(s)	stim_id	stim      	cond    	dur 	rt  	acc 	resp    	cresp   
1   	1373.3	1   	8  +  7   	---     	1.851	1.068	1   	odd     	odd     
2   	1375.3	2   	6  +  7   	---     	1.853	0.724	1   	odd     	odd     
